File: durabler1/data/Testdataexport/S1 Tensile 10mm from snickers 08-25-25 14 42 42 PM/Test Data - (Timed)1.csv
"File Path: S:\Durabler\Certificates\Testdataexport\S1 Tensile 10mm from snickers 08-25-25 14 42 42 PM\Test Data - (Timed).csv   "
"Test: TensileUn 23"
"Test Run: S1 Tensile 10mm from snickers"
"Date: 8/25/2025 2:08:35 PM"
""
""
"Running Time ","Axial Displacement ","Axial Force ","Axial Ext "
"sec","mm","kN","mm"
"0.219727","-19.8919","0.0881908","-0.00421093"
"0.619792","-19.8935","0.0957179","-0.00527995"
"1.01986","-19.8925","0.104712","-0.000276201"
"1.41992","-19.8933","0.0920624","-0.00650038"
"1.81999","-19.8929","0.0884662","-0.00663047"
"2.22005","-19.8925","0.0961756","-0.00618151"
"2.62012","-19.8922","0.0969296","-0.0031093"
"3.02018","-19.8937","0.0998352","-0.00715671"
"3.42025","-19.8925","0.101657","-0.00421471"
"3.82031","-19.887","0.203945","-0.00121309"
"4.22038","-19.8622","0.683409","-0.00523544"
"4.62044","-19.8385","1.27257","-0.00778818"
"5.02051","-19.813","1.85631","0.00611389"
"5.42057","-19.7914","2.32783","-0.00214551"
"5.82064","-19.767","2.62063","-0.00190676"
"6.2207","-19.7418","2.95332","0.00441354"
"6.62077","-19.7175","3.15818","0.0134969"
"7.02083","-19.6948","3.15096","0.00609587"
"7.4209","-19.671","3.4157","0.00520212"
"7.82096","-19.6463","3.86738","0.00928982"
"8.22103","-19.622","4.46868","0.00372222"
"8.62109","-19.5987","5.09102","0.0113315"
"9.02116","-19.574","5.78851","0.012814"
"9.42122","-19.5507","6.56671","0.00989274"
"9.82129","-19.5256","7.35593","0.0108412"
"10.2214","-19.5022","8.19318","0.0145692"
"10.6214","-19.4786","9.04748","0.0137779"
"11.0215","-19.4552","9.94345","0.0168199"
"11.4215","-19.4306","10.8621","0.0211243"
"11.8216","-19.4054","11.796","0.0172597"
"12.2217","-19.382","12.7727","0.0219895"
"12.6217","-19.3589","13.771","0.0230309"
"13.0218","-19.3334","14.8201","0.027238"
"13.4219","-19.3106","15.8712","0.0300342"
"13.8219","-19.2854","16.9365","0.0299884"
"14.222","-19.2612","18.0257","0.0334565"
"14.6221","-19.2374","19.0943","0.0357828"
"15.0221","-19.2137","20.1976","0.0399926"
"15.4222","-19.1898","21.3326","0.0456751"
"15.8223","-19.1655","22.4652","0.0471234"
"16.2223","-19.1409","23.6145","0.0506457"
"16.6224","-19.1177","24.73575","0.0562104"
"17.0225","-19.0934","25.8916","0.0556337"
"17.4225","-19.0693","27.0272","0.0566404"
"17.8226","-19.0463","28.1743","0.0575787"
"18.2227","-19.0213","29.3618","0.064434"
"18.6227","-18.9987","30.5108","0.0687473"
"19.0228","-18.9734","31.6675","0.0734531"
"19.4229","-18.9497","32.8219","0.0745034"
"19.8229","-18.925","34.0126","0.0752664"
"20.223","-18.9011","35.1558","0.0808233"
"20.623","-18.8775","36.3014","0.0787759"
"21.0231","-18.8535","37.4401","0.0830661"
"21.4232","-18.83","38.566","0.0889313"
"21.8232","-18.8062","39.6595","0.0937419"
"22.2233","-18.781","40.7304","0.100744"
"22.6234","-18.7582","41.7899","0.0992773"
"23.0234","-18.7338","42.7801","0.106281"
"23.4235","-18.7095","43.6995","0.107947"
"23.8236","-18.6853","44.5193","0.116592"
"24.2236","-18.6618","45.239","0.122144"
"24.6237","-18.6362","45.8841","0.128151"
"25.0238","-18.6121","46.4143","0.130069"
"25.4238","-18.5897","46.8238","0.141618"
"25.8239","-18.5652","47.1743","0.151436"
"26.224","-18.5422","47.4319","0.156048"
"26.624","-18.5179","47.6188","0.160064"
"27.0241","-18.4923","47.7649","0.173319"
"27.4242","-18.4698","47.8065","0.173194"
"27.8242","-18.4457","47.8129","0.179461"
"28.2243","-18.421","47.8126","0.182707"
"28.6243","-18.397","47.8521","0.181626"
"29.0244","-18.3725","47.8549","0.188795"
"29.4245","-18.3492","47.8707","0.204457"
"29.8245","-18.3255","47.8387","0.20633"
"30.2246","-18.3014","47.7839","0.214675"
"30.6247","-18.2773","47.7366","0.236678"
"31.0247","-18.2532","47.6923","0.248983"
"31.4248","-18.2294","47.6827","0.272462"
"31.8249","-18.204","47.7231","0.29081"
"32.2249","-18.1804","47.7531","0.307838"
"32.625","-18.1565","47.8151","0.324012"
"33.0251","-18.1331","47.8859","0.33651"
"33.4251","-18.1094","47.9339","0.359534"
"33.8252","-18.0858","48.0087","0.37221"
"34.2253","-18.0604","48.0335","0.390889"
"34.6253","-18.0362","48.0896","0.403597"
"35.0254","-18.0117","48.1498","0.419005"
"35.4255","-17.9896","48.2061","0.434801"
"35.8255","-17.965","48.2488","0.453759"
"36.2256","-17.9401","48.2542","0.470185"
"36.6257","-17.9173","48.2871","0.487447"
"37.0257","-17.8918","48.3019","0.501774"
"37.4258","-17.8682","48.3036","0.513351"
"37.8258","-17.8453","48.288","0.524791"
"38.2259","-17.8217","48.2461","0.545851"
"38.626","-17.7981","48.218","0.555464"
"39.026","-17.7742","48.2146","0.57009"
"39.4261","-17.7463","48.2212","0.576769"
"39.8262","-17.7253","48.211","0.591283"
"40.2262","-17.7008","48.2253","0.603023"
"40.6263","-17.676","48.3237","0.61414"
"41.0264","-17.6522","48.4185","0.622569"
"41.4264","-17.6296","48.5221","0.644177"
"41.8265","-17.6037","48.6169","0.653573"
"42.2266","-17.5806","48.7116","0.666514"
"42.6266","-17.5567","48.7697","0.673556"
"43.0267","-17.5344","48.8371","0.688902"
"43.4268","-17.5098","48.9019","0.696141"
"43.8268","-17.4852","48.9601","0.709097"
"44.2269","-17.4609","48.9985","0.723566"
"44.627","-17.4363","49.0688","0.724479"
"45.027","-17.4133","49.1097","0.737432"
"45.4271","-17.3885","49.1554","0.756169"
"45.8271","-17.366","49.2002","0.754541"
"46.2272","-17.3418","49.2377","0.767976"
"46.6273","-17.3171","49.2974","0.775977"
"47.0273","-17.2919","49.3554","0.786255"
"47.4274","-17.2682","49.404","0.799145"
"47.8275","-17.2454","49.4252","0.805497"
"48.2275","-17.2208","49.4795","0.80873"
"48.6276","-17.1973","49.5548","0.825196"
"49.0277","-17.173","49.6062","0.834304"
"49.4277","-17.15","49.6258","0.844972"
"49.8278","-17.1256","49.6965","0.857753"
"50.2279","-17.1017","49.7543","0.866364"
"50.6279","-17.0759","49.8182","0.874659"
"51.028","-17.0529","49.8572","0.888509"
"51.4281","-17.0283","49.8995","0.897499"
"51.8281","-17.0042","49.9571","0.907722"
"52.2282","-16.9801","50.0302","0.914753"
"52.6283","-16.956","50.0937","0.930638"
"53.0283","-16.9318","50.1212","0.936651"
"53.4284","-16.9084","50.1573","0.951099"
"53.8284","-16.8842","50.2305","0.959846"
"54.2285","-16.8619","50.2857","0.976247"
"54.6286","-16.8369","50.3487","0.98409"
"55.0286","-16.8132","50.394","0.990806"
"55.4287","-16.7886","50.4289","1.00113"
"55.8288","-16.7641","50.4893","1.01686"
"56.2288","-16.7413","50.5474","1.02777"
"56.6289","-16.716","50.5878","1.03574"
"57.029","-16.693","50.6515","1.04413"
"57.429","-16.667","50.6983","1.0562"
"57.8291","-16.645","50.7408","1.07016"
"58.2292","-16.6196","50.7818","1.07699"
"58.6292","-16.5968","50.8426","1.08998"
"59.0293","-16.5727","50.9055","1.10444"
"59.4294","-16.5494","50.9438","1.10636"
"59.8294","-16.5241","51.0066","1.11618"
"60.2295","-16.5014","51.0387","1.13257"
"60.6296","-16.4759","51.1006","1.14712"
"61.0296","-16.4513","51.1635","1.15157"
"61.4297","-16.4282","51.2123","1.1683"
"61.8298","-16.4054","51.2604","1.17525"
"62.2298","-16.381","51.2929","1.18865"
"62.6299","-16.3569","51.3629","1.19405"
"63.0299","-16.3331","51.3964","1.21048"
"63.43","-16.309","51.4427","1.22323"
"63.8301","-16.2842","51.5172","1.2311"
"64.2301","-16.2603","51.5567","1.24079"
"64.6302","-16.2367","51.6087","1.25579"
"65.0303","-16.2118","51.668","1.26615"
"65.4303","-16.188","51.7259","1.27649"
"65.8304","-16.1648","51.7386","1.28344"
"66.2305","-16.1409","51.803","1.29833"
"66.6305","-16.1159","51.8632","1.30811"
"67.0306","-16.093","51.9062","1.31667"
"67.4307","-16.0698","51.9573","1.32597"
"67.8307","-16.0438","52.0026","1.33583"
"68.2308","-16.0207","52.0402","1.34773"
"68.6309","-15.9958","52.1041","1.36187"
"69.0309","-15.9714","52.1486","1.37174"
"69.431","-15.9497","52.1883","1.38262"
"69.8311","-15.9245","52.2506","1.38876"
"70.2311","-15.901","52.293","1.40575"
"70.6312","-15.8768","52.3228","1.41444"
"71.03125","-15.8537","52.3628","1.42965"
"71.4313","-15.8299","52.4269","1.43726"
"71.8314","-15.805","52.4665","1.44706"
"72.2314","-15.7796","52.5112","1.45452"
"72.6315","-15.7564","52.5826","1.47239"
"73.0316","-15.7328","52.6005","1.48374"
"73.4316","-15.708","52.6552","1.49378"
"73.8317","-15.6846","52.7055","1.50144"
"74.2318","-15.6603","52.7355","1.51535"
"74.6318","-15.6358","52.7806","1.51751"
"75.0319","-15.6114","52.8188","1.53248"
"75.432","-15.5885","52.8735","1.54839"
"75.832","-15.5643","52.9185","1.55605"
"76.2321","-15.5404","52.9701","1.57106"
"76.6322","-15.5167","52.9983","1.58042"
"77.0322","-15.4923","53.0546","1.59139"
"77.4323","-15.468","53.0954","1.6017"
"77.8324","-15.4448","53.138","1.61377"
"78.2324","-15.4208","53.178","1.6251"
"78.6325","-15.3965","53.2191","1.63293"
"79.0326","-15.3722","53.2684","1.64349"
"79.4326","-15.348","53.312","1.65961"
"79.8327","-15.3245","53.3329","1.66435"
"80.2327","-15.2997","53.398","1.67882"
"80.6328","-15.2738","53.4378","1.693"
"81.0329","-15.2525","53.479","1.69825"
"81.4329","-15.2278","53.516","1.7133"
"81.833","-15.2041","53.551","1.72053"
"82.2331","-15.181","53.5834","1.73682"
"82.6331","-15.1568","53.6285","1.7457"
"83.0332","-15.1331","53.6785","1.75604"
"83.4333","-15.1076","53.6822","1.76742"
"83.8333","-15.085","53.7369","1.77699"
"84.2334","-15.0601","53.7856","1.78611"
"84.6335","-15.0359","53.8318","1.79434"
"85.0335","-15.0134","53.8533","1.81037"
"85.4336","-14.9883","53.9193","1.81879"
"85.8337","-14.965","53.9405","1.83176"
"86.2337","-14.9406","53.9696","1.83613"
"86.6338","-14.9165","54.0041","1.85528"
"87.0339","-14.8927","54.0618","1.86498"
"87.4339","-14.8683","54.1145","1.87931"
"87.834","-14.8436","54.1369","1.89188"
"88.234","-14.8206","54.1641","1.90035"
"88.6341","-14.7962","54.2039","1.91503"
"89.0342","-14.7714","54.2589","1.92196"
"89.4342","-14.7491","54.2814","1.93302"
"89.8343","-14.7238","54.2986","1.94373"
"90.2344","-14.6998","54.36","1.95853"
"90.6344","-14.6764","54.4055","1.96706"
"91.0345","-14.6523","54.4212","1.98144"
"91.4346","-14.6275","54.4698","1.9914"
"91.8346","-14.6034","54.4932","1.99796"
"92.2347","-14.5803","54.5211","2.01824"
"92.6348","-14.5548","54.5687","2.02325"
"93.0348","-14.5331","54.6051","2.03638"
"93.4349","-14.508","54.6485","2.04885"
"93.835","-14.4838","54.6544","2.06303"
"94.235","-14.4604","54.7048","2.07129"
"94.6351","-14.4355","54.7407","2.076"
"95.0352","-14.412","54.775","2.09502"
"95.4352","-14.3877","54.7901","2.1025"
"95.8353","-14.3638","54.8323","2.10861"
"96.2354","-14.3408","54.8743","2.12653"
"96.6354","-14.3164","54.8968","2.13569"
"97.0355","-14.2929","54.9255","2.15073"
"97.4355","-14.2681","54.9821","2.16307"
"97.8356","-14.2444","55.0037","2.1691"
"98.2357","-14.2197","55.0246","2.1829"
"98.6357","-14.1952","55.0552","2.18801"
"99.0358","-14.1718","55.0968","2.20579"
"99.4359","-14.1479","55.1219","2.21211"
"99.8359","-14.1229","55.1657","2.22469"
"100.236","-14.1009","55.1863","2.2372"
"100.636","-14.077","55.2224","2.24031"
"101.036","-14.0522","55.2588","2.25907"
"101.436","-14.0284","55.2853","2.27475"
"101.836","-14.0039","55.3203","2.28394"
"102.236","-13.98","55.3368","2.29735"
"102.636","-13.9555","55.3469","2.31011"
"103.036","-13.9317","55.3846","2.31457"
"103.437","-13.9069","55.4409","2.32895"
"103.837","-13.8844","55.4632","2.34289"
"104.237","-13.8603","55.4909","2.35725"
"104.637","-13.8367","55.507","2.36258"
"105.037","-13.8131","55.5279","2.37783"
"105.437","-13.7883","55.5528","2.38393"
"105.837","-13.764","55.6085","2.40226"
"106.237","-13.74","55.6209","2.40805"
"106.637","-13.7156","55.657","2.4206"
"107.037","-13.6918","55.6842","2.42695"
"107.437","-13.6682","55.7115","2.44383"
"107.837","-13.6434","55.73","2.45108"
"108.237","-13.6207","55.7694","2.46766"
"108.637","-13.5968","55.7784","2.47997"
"109.037","-13.5729","55.8231","2.48607"
"109.4375","-13.5494","55.8545","2.50088"
"109.838","-13.5233","55.8698","2.50951"
"110.238","-13.5","55.9106","2.52252"
"110.638","-13.4768","55.9208","2.5287"
"111.038","-13.452","55.9686","2.54937"
"111.438","-13.4278","55.9856","2.56167"
"111.838","-13.4032","56.0089","2.57807"
"112.238","-13.3801","56.0442","2.58668"
"112.638","-13.356","56.05","2.59182"
"113.038","-13.3322","56.0709","2.60338"
"113.438","-13.3076","56.0981","2.62409"
"113.838","-13.2841","56.1391","2.63524"
"114.238","-13.2607","56.1549","2.64312"
"114.638","-13.2363","56.1882","2.65542"
"115.038","-13.2117","56.2146","2.66824"
"115.438","-13.188","56.2243","2.67321"
"115.839","-13.1641","56.2632","2.68879"
"116.239","-13.1395","56.2875","2.70114"
"116.639","-13.1165","56.3074","2.71624"
"117.039","-13.0926","56.3262","2.72538"
"117.439","-13.0678","56.3421","2.73547"
"117.839","-13.0429","56.3713","2.7493"
"118.239","-13.0195","56.3914","2.76198"
"118.639","-12.996","56.4187","2.77438"
"119.039","-12.9715","56.4468","2.78438"
"119.439","-12.9466","56.4554","2.7962"
"119.839","-12.9243","56.5006","2.81284"
"120.239","-12.8999","56.4997","2.82804"
"120.639","-12.8754","56.531","2.83444"
"121.039","-12.8529","56.5664","2.84491"
"121.439","-12.828","56.5628","2.86077"
"121.84","-12.8042","56.5968","2.86945"
"122.24","-12.7805","56.6348","2.88321"
"122.64","-12.7559","56.6442","2.89618"
"123.04","-12.7315","56.6746","2.90999"
"123.44","-12.7067","56.6913","2.91884"
"123.84","-12.6833","56.7153","2.93249"
"124.24","-12.66","56.735","2.94014"
"124.64","-12.6363","56.749","2.95789"
"125.04","-12.6112","56.754","2.9686"
"125.44","-12.5877","56.7927","2.98053"
"125.84","-12.5635","56.7964","2.99092"
"126.24","-12.5396","56.8308","3.00509"
"126.64","-12.5172","56.8504","3.01639"
"127.04","-12.4915","56.8822","3.03028"
"127.44","-12.4677","56.8796","3.03261"
"127.84","-12.4436","56.9108","3.05183"
"128.241","-12.4198","56.9258","3.06184"
"128.641","-12.3954","56.9509","3.07814"
"129.041","-12.3726","56.967","3.08892"
"129.441","-12.3483","56.9942","3.10232"
"129.841","-12.3239","57.0195","3.10473"
"130.241","-12.2997","57.0107","3.12687"
"130.641","-12.2758","57.0593","3.12979"
"131.041","-12.2527","57.0646","3.1523"
"131.441","-12.2287","57.0906","3.16075"
"131.841","-12.2035","57.098","3.1727"
"132.241","-12.1799","57.1232","3.18744"
"132.641","-12.1564","57.1457","3.19016"
"133.041","-12.1319","57.1448","3.2062"
"133.441","-12.1087","57.1674","3.21851"
"133.841","-12.0843","57.1903","3.23126"
"134.242","-12.0615","57.2086","3.2407"
"134.642","-12.0353","57.2139","3.25837"
"135.042","-12.0125","57.2358","3.2681"
"135.442","-11.9892","57.2346","3.27488"
"135.842","-11.9631","57.2814","3.28767"
"136.242","-11.94","57.2869","3.30199"
"136.642","-11.916","57.3007","3.30482"
"137.042","-11.892","57.3099","3.32355"
"137.442","-11.8682","57.3318","3.3373"
"137.842","-11.844","57.35","3.34911"
"138.242","-11.8191","57.3565","3.35454"
"138.642","-11.7961","57.3796","3.37277"
"139.042","-11.7716","57.4073","3.3792"
"139.442","-11.747","57.4368","3.39309"
"139.842","-11.7241","57.4365","3.41171"
"140.243","-11.7007","57.4477","3.41886"
"140.643","-11.676","57.4591","3.42646"
"141.043","-11.652","57.4734","3.44279"
"141.443","-11.6279","57.4937","3.46005"
"141.843","-11.6039","57.5115","3.46733"
"142.243","-11.5795","57.5169","3.47672"
"142.643","-11.5556","57.5499","3.49381"
"143.043","-11.5317","57.5491","3.50463"
"143.443","-11.5078","57.5557","3.51597"
"143.843","-11.4829","57.5909","3.52129"
"144.243","-11.4595","57.5911","3.53263"
"144.643","-11.4362","57.6123","3.54353"
"145.043","-11.4109","57.6209","3.55524"
"145.443","-11.387","57.6311","3.56804"
"145.843","-11.3633","57.6521","3.58417"
"146.243","-11.3391","57.6559","3.60065"
"146.644","-11.3153","57.6904","3.6065"
"147.044","-11.2918","57.7179","3.62099"
"147.444","-11.2676","57.7107","3.63364"
"147.844","-11.2439","57.7354","3.64195"
"148.244","-11.2187","57.7423","3.65007"
"148.644","-11.1964","57.7512","3.67087"
"149.044","-11.1715","57.7637","3.68043"
"149.444","-11.1477","57.7745","3.6893"
"149.844","-11.1245","57.7629","3.70489"
"150.244","-11.0991","57.8047","3.71815"
"150.644","-11.0761","57.8034","3.72729"
"151.044","-11.052","57.8335","3.7377"
"151.444","-11.0279","57.8339","3.75125"
"151.844","-11.0045","57.8443","3.76487"
"152.244","-10.9786","57.8626","3.78423"
"152.645","-10.9549","57.8644","3.787"
"153.045","-10.9326","57.8955","3.80675"
"153.445","-10.9074","57.9014","3.81285"
"153.845","-10.884","57.8883","3.8307"
"154.245","-10.8594","57.9121","3.84128"
"154.645","-10.8364","57.9277","3.85387"
"155.045","-10.8119","57.9309","3.86714"
"155.445","-10.7877","57.9457","3.88156"
"155.845","-10.7623","57.9695","3.89523"
"156.245","-10.7402","57.9813","3.90491"
"156.645","-10.715","57.9897","3.91557"
"157.045","-10.6916","58.0003","3.92813"
"157.445","-10.6673","58.0165","3.94487"
"157.845","-10.6442","58.0058","3.95786"
"158.245","-10.6197","58.0409","3.96883"
"158.646","-10.5954","58.0348","3.97821"
"159.046","-10.5721","58.0705","3.9915"
"159.446","-10.547","58.0733","4.00658"
"159.846","-10.5241","58.0876","4.01701"
"160.246","-10.4997","58.1026","4.02893"
"160.646","-10.4749","58.1056","4.04526"
"161.046","-10.4511","58.1148","4.05633"
"161.446","-10.4279","58.107","4.0733"
"161.846","-10.4034","58.1213","4.08014"
"162.246","-10.3804","58.1249","4.0938"
"162.646","-10.3563","58.1444","4.10693"
"163.046","-10.3312","58.1505","4.1148"
"163.446","-10.3074","58.1689","4.13139"
"163.846","-10.2839","58.1857","4.15001"
"164.246","-10.2596","58.1818","4.16087"
"164.646","-10.2352","58.2126","4.16675"
"165.047","-10.2107","58.2156","4.17974"
"165.447","-10.1875","58.2224","4.19368"
"165.847","-10.163","58.2071","4.20778"
"166.247","-10.1392","58.2389","4.21944"
"166.647","-10.1153","58.2329","4.23945"
"167.047","-10.0909","58.252","4.24712"
"167.447","-10.0665","58.2688","4.26019"
"167.847","-10.0434","58.2747","4.27572"
"168.247","-10.0207","58.2726","4.28507"
"168.647","-9.99583","58.2833","4.29569"
"169.047","-9.97198","58.2918","4.30849"
"169.447","-9.94836","58.2829","4.31808"
"169.847","-9.92364","58.3209","4.34121"
"170.247","-9.89869","58.3038","4.3503"
"170.647","-9.87533","58.3284","4.35681"
"171.048","-9.85105","58.3481","4.37387"
"171.448","-9.8276","58.339","4.38643"
"171.848","-9.80335","58.355","4.40264"
"172.248","-9.7788","58.3458","4.41708"
"172.648","-9.75553","58.3798","4.42601"
"173.048","-9.73065","58.3692","4.44248"
"173.448","-9.70815","58.385","4.45804"
"173.848","-9.68355","58.3861","4.46766"
"174.248","-9.65899","58.4013","4.48364"
"174.648","-9.63428","58.4048","4.49601"
"175.048","-9.61215","58.4028","4.51004"
"175.448","-9.58658","58.4108","4.5277"
"175.848","-9.56388","58.4246","4.53951"
"176.248","-9.53784","58.4281","4.54881"
"176.648","-9.51589","58.4296","4.56478"
"177.049","-9.4915","58.4498","4.57371"
"177.449","-9.46715","58.459","4.591"
"177.849","-9.44338","58.4535","4.60798"
"178.249","-9.41943","58.4641","4.6134"
"178.649","-9.39593","58.4545","4.63055"
"179.049","-9.37089","58.4887","4.64559"
"179.449","-9.34698","58.4889","4.65971"
"179.849","-9.32231","58.4998","4.6727"
"180.249","-9.29927","58.478","4.69325"
"180.649","-9.27518","58.4995","4.70062"
"181.049","-9.25244","58.5059","4.7096"
"181.449","-9.22784","58.5078","4.72686"
"181.849","-9.20396","58.5216","4.74095"
"182.249","-9.17933","58.5353","4.74989"
"182.649","-9.15579","58.5335","4.76849"
"183.049","-9.13163","58.5361","4.78436"
"183.45","-9.10699","58.5221","4.79227"
"183.85","-9.08397","58.5341","4.81453"
"184.25","-9.05906","58.5361","4.82825"
"184.65","-9.0349","58.5611","4.83888"
"185.05","-9.01152","58.5662","4.85629"
"185.45","-8.98812","58.5587","4.86676"
"185.85","-8.96256","58.5785","4.88101"
"186.25","-8.93835","58.5738","4.89574"
"186.65","-8.91535","58.583","4.90974"
"187.05","-8.89161","58.5908","4.92064"
"187.45","-8.86726","58.5791","4.93676"
"187.85","-8.84318","58.5911","4.95093"
"188.25","-8.81882","58.6211","4.96592"
"188.65","-8.7951","58.6035","4.97823"
"189.05","-8.7712","58.5986","4.99509"
"189.451","-8.74731","58.6043","5.00245"
"189.851","-8.72375","58.618","5.01463"
"190.251","-8.69962","58.6254","5.03192"
"190.651","-8.67475","58.639","5.04435"
"191.051","-8.65149","58.6282","5.06275"
"191.451","-8.62774","58.6378","5.07784"
"191.851","-8.60291","58.6489","5.08501"
"192.251","-8.57921","58.6503","5.10871"
"192.651","-8.55579","58.6492","5.11926"
"193.051","-8.53032","58.6463","5.13197"
"193.451","-8.50706","58.6561","5.14623"
"193.851","-8.48284","58.6433","5.15751"
"194.251","-8.45884","58.6605","5.17301"
"194.651","-8.43552","58.6665","5.18901"
"195.051","-8.4114","58.6543","5.20716"
"195.451","-8.38729","58.665","5.2141"
"195.852","-8.363","58.6871","5.23159"
"196.252","-8.33887","58.6919","5.24146"
"196.652","-8.31528","58.6981","5.26217"
"197.052","-8.29084","58.7111","5.27705"
"197.452","-8.26801","58.6736","5.28759"
"197.852","-8.24349","58.6967","5.3051"
"198.252","-8.2201","58.6986","5.31989"
"198.652","-8.19505","58.6945","5.33661"
"199.052","-8.16985","58.7031","5.34952"
"199.452","-8.14784","58.7156","5.36529"
"199.852","-8.12205","58.6937","5.38454"
"200.252","-8.09838","58.7124","5.39379"
"200.652","-8.07572","58.7142","5.41008"
"201.052","-8.05174","58.7323","5.42941"
"201.452","-8.02705","58.7119","5.44746"
"201.853","-8.00355","58.7212","5.45958"
"202.253","-7.97881","58.7272","5.47056"
"202.653","-7.9547","58.7187","5.49351"
"203.053","-7.93174","58.7295","5.51161"
"203.453","-7.90739","58.7407","5.52231"
"203.853","-7.88277","58.7376","5.53891"
"204.253","-7.85967","58.7413","5.54906"
"204.653","-7.83602","58.7397","5.56682"
"205.053","-7.81168","58.7364","5.58438"
"205.453","-7.78709","58.7329","5.60233"
"205.853","-7.76203","58.7406","5.61539"
"206.253","-7.73916","58.7459","5.62844"
"206.653","-7.71376","58.7646","5.64844"
"207.053","-7.69112","58.7385","5.66401"
"207.453","-7.66764","58.749","5.68169"
"207.854","-7.64241","58.7531","5.6984"
"208.254","-7.6191","58.7501","5.71227"
"208.654","-7.59509","58.7555","5.72792"
"209.054","-7.57091","58.7567","5.74351"
"209.454","-7.5466","58.781","5.76324"
"209.854","-7.52244","58.7721","5.77642"
"210.254","-7.4988","58.7391","5.79534"
"210.654","-7.4744","58.7643","5.81016"
"211.054","-7.45064","58.7683","5.82576"
"211.454","-7.42679","58.774","5.84518"
"211.854","-7.40415","58.7544","5.8553"
"212.254","-7.37874","58.7561","5.88237"
"212.654","-7.35639","58.7612","5.89688"
"213.054","-7.33197","58.76","5.91262"
"213.454","-7.30691","58.7601","5.92521"
"213.854","-7.28259","58.7686","5.93974"
"214.255","-7.25964","58.7509","5.95959"
"214.655","-7.23576","58.779","5.98171"
"215.055","-7.21076","58.7656","5.99711"
"215.455","-7.18546","58.7711","6.01187"
"215.855","-7.16221","58.7713","6.03027"
"216.255","-7.13996","58.7417","6.05482"
"216.655","-7.11548","58.7581","6.06298"
"217.055","-7.09019","58.7588","6.07632"
"217.455","-7.06776","58.7535","6.09935"
"217.855","-7.04251","58.7487","6.12225"
"218.255","-7.01956","58.7624","6.13219"
"218.655","-6.99447","58.7678","6.14878"
"219.055","-6.97079","58.7433","6.1672"
"219.455","-6.947","58.7582","6.18553"
"219.855","-6.92334","58.7396","6.20576"
"220.256","-6.89867","58.7507","6.22302"
"220.656","-6.87518","58.7517","6.24018"
"221.056","-6.8501","58.7523","6.25596"
"221.456","-6.82587","58.7497","6.27486"
"221.856","-6.80226","58.7358","6.29543"
"222.256","-6.77851","58.7398","6.31406"
"222.656","-6.75312","58.7253","6.3326"
"223.056","-6.72912","58.7383","6.34618"
"223.456","-6.70747","58.7201","6.36711"
"223.856","-6.68206","58.7393","6.3835"
"224.256","-6.65849","58.7292","6.40585"
"224.656","-6.63418","58.7282","6.41737"
"225.056","-6.61106","58.7237","6.44231"
"225.456","-6.58782","58.7129","6.46172"
"225.856","-6.56317","58.7016","6.48"
"226.257","-6.53874","58.7201","6.50105"
"226.657","-6.51476","58.7101","6.51548"
"227.057","-6.49058","58.6937","6.53935"
"227.457","-6.46716","58.6874","6.54572"
"227.857","-6.44365","58.6893","6.57811"
"228.257","-6.41929","58.704","6.59229"
"228.657","-6.39501","58.6639","6.60704"
"229.057","-6.37115","58.6902","6.63481"
"229.457","-6.34705","58.6893","6.65363"
"229.857","-6.32243","58.664","6.67519"
"230.257","-6.29906","58.6816","6.68782"
"230.657","-6.27609","58.6556","6.70558"
"231.057","-6.25058","58.6277","6.73371"
"231.457","-6.2259","58.6607","6.7482"
"231.857","-6.20312","58.6359","6.77128"
"232.257","-6.17891","58.6582","6.79081"
"232.658","-6.15489","58.6292","6.81232"
"233.058","-6.1318","58.6178","6.83228"
"233.458","-6.10694","58.6206","6.85763"
"233.858","-6.0825","58.6058","6.8743"
"234.258","-6.05957","58.5784","6.89261"
"234.658","-6.03528","58.5856","6.91913"
"235.058","-6.01055","58.5606","6.93422"
"235.458","-5.98648","58.5619","6.96298"
"235.858","-5.9632","58.5474","6.97695"
"236.258","-5.93887","58.5512","6.9984"
"236.658","-5.91518","58.5337","7.01497"
"237.058","-5.89135","58.5174","7.04387"
"237.458","-5.86622","58.5289","7.06272"
"237.858","-5.84341","58.4892","7.08371"
"238.258","-5.81801","58.4878","7.10399"
"238.659","-5.79472","58.4748","7.12148"
"239.059","-5.7709","58.4526","7.14659"
"239.459","-5.74623","58.4435","7.17016"
"239.859","-5.72326","58.4397","7.19134"
"240.259","-5.69923","58.4048","7.21394"
"240.659","-5.67527","58.4197","7.24"
"241.059","-5.64931","58.3854","7.25658"
"241.459","-5.62733","58.3708","7.2783"
"241.859","-5.60429","58.347","7.3065"
"242.259","-5.57868","58.3587","7.32302"
"242.659","-5.55477","58.3146","7.34716"
"243.059","-5.53052","58.2876","7.37111"
"243.459","-5.50625","58.2992","7.39589"
"243.859","-5.48152","58.2511","7.41846"
"244.259","-5.45865","58.2239","7.43315"
"244.66","-5.43515","58.2109","7.45773"
"245.06","-5.41015","58.1966","7.4823"
"245.46","-5.38687","58.1741","7.51324"
"245.86","-5.36205","58.1484","7.52618"
"246.26","-5.33957","58.1088","7.55351"
"246.66","-5.31445","58.0974","7.57853"
"247.06","-5.2908","58.0673","7.60595"
"247.46","-5.2672","58.0374","7.61775"
"247.86","-5.24359","58.00575","7.65099"
"248.26","-5.21871","57.9791","7.67337"
"248.66","-5.19413","57.9514","7.69932"
"249.06","-5.17038","57.9267","7.72061"
"249.46","-5.14734","57.8922","7.74207"
"249.86","-5.12224","57.8572","7.77403"
"250.26","-5.09895","57.8197","7.79008"
"250.66","-5.07508","57.7712","7.81455"
"251.061","-5.05086","57.7442","7.83896"
"251.461","-5.02674","57.7113","7.86128"
"251.861","-5.00288","57.6614","7.89707"
"252.261","-4.97956","57.6274","7.91524"
"252.661","-4.9544","57.5898","7.93864"
"253.061","-4.93006","57.55475","7.96382"
"253.461","-4.90706","57.5268","7.98429"
"253.861","-4.88335","57.4869","8.00885"
"254.261","-4.85859","57.4216","8.03687"
"254.661","-4.83453","57.3931","8.06281"
"255.061","-4.81157","57.367","8.07924"
"255.461","-4.78615","57.2993","8.11394"
"255.861","-4.76236","57.2542","8.13408"
"256.261","-4.73844","57.2078","8.15778"
"256.661","-4.71432","57.1642","8.18617"
"257.062","-4.69111","57.106","8.20307"
"257.462","-4.66605","57.0757","8.23398"
"257.862","-4.64269","57.0188","8.25498"
"258.262","-4.61806","56.9665","8.27852"
"258.662","-4.5941","56.9296","8.31345"
"259.062","-4.57043","56.8796","8.32946"
"259.462","-4.54646","56.8215","8.35183"
"259.862","-4.52225","56.7819","8.37691"
"260.262","-4.49849","56.6916","8.40939"
"260.662","-4.47444","56.634","8.42454"
"261.062","-4.45066","56.6227","8.45588"
"261.462","-4.42716","56.5396","8.48526"
"261.862","-4.40138","56.4665","8.49955"
"262.262","-4.37903","56.44","8.53267"
"262.662","-4.35461","56.3508","8.55219"
"263.0625","-4.33337","56.2976","8.58002"
"263.463","-4.30698","56.2397","8.60344"
"263.863","-4.28205","56.1752","8.62801"
"264.263","-4.25779","56.119","8.65461"
"264.663","-4.23466","56.0521","8.67803"
"265.063","-4.21043","55.9921","8.70574"
"265.463","-4.18669","55.9291","8.72939"
"265.863","-4.16225","55.8539","8.75191"
"266.263","-4.13775","55.811","8.77723"
"266.663","-4.11472","55.7345","8.80506"
"267.063","-4.08941","55.6779","8.83082"
"267.463","-4.06577","55.5958","8.8526"
"267.863","-4.04285","55.525","8.87793"
"268.263","-4.0187","55.4523","8.89859"
"268.663","-3.99386","55.3802","8.93061"
"269.063","-3.97012","55.306","8.95685"
"269.464","-3.94623","55.2322","8.97184"
"269.864","-3.92233","55.1644","8.99957"
"270.264","-3.89831","55.0819","9.03002"
"270.664","-3.87423","55.0276","9.05924"
"271.064","-3.85059","54.96","9.08355"
"271.464","-3.82601","54.8393","9.10717"
"271.864","-3.80145","54.8005","9.12988"
"272.264","-3.77849","54.7063","9.15845"
"272.664","-3.7539","54.6449","9.18405"
"273.064","-3.7297","54.54875","9.20217"
"273.464","-3.70571","54.4684","9.22791"
"273.864","-3.68231","54.384","9.25851"
"274.264","-3.65788","54.313","9.2888"
"274.664","-3.63456","54.232","9.30489"
"275.064","-3.61043","54.156","9.33553"
"275.465","-3.58613","54.0642","9.35974"
"275.865","-3.5617","54.0008","9.38294"
"276.265","-3.53895","53.8887","9.4115"
"276.665","-3.51339","53.7927","9.43505"
"277.065","-3.48924","53.7254","9.45674"
"277.465","-3.46599","53.6107","9.48477"
"277.865","-3.44312","53.542","9.51153"
"278.265","-3.41895","53.4233","9.53096"
"278.665","-3.39555","53.3498","9.5576"
"279.065","-3.37149","53.2652","9.58378"
"279.465","-3.3452","53.1709","9.6069"
"279.865","-3.32106","53.075","9.64155"
"280.265","-3.2979","52.9625","9.66615"
"280.665","-3.27485","52.8668","9.69339"
"281.065","-3.24888","52.795","9.71226"
"281.465","-3.22729","52.7083","9.73766"
"281.866","-3.20355","52.5917","9.76559"
"282.266","-3.17784","52.4935","9.791"
"282.666","-3.15442","52.388","9.8224"
"283.066","-3.13098","52.2737","9.85011"
"283.466","-3.10628","52.1874","9.86822"
"283.866","-3.08196","52.0752","9.89266"
"284.266","-3.05793","52.0008","9.9166"
"284.666","-3.03382","51.8766","9.94357"
"285.066","-3.01016","51.7778","9.96654"
"285.466","-2.98577","51.679","9.99838"
"285.866","-2.96218","51.5668","10.0277"
"286.266","-2.93892","51.4561","10.0516"
"286.666","-2.91412","51.3352","10.0801"
"287.066","-2.88968","51.2191","10.0995"
"287.466","-2.86724","51.1146","10.1229"
"287.867","-2.84166","51.0106","10.1506"
"288.267","-2.81881","50.8755","10.1734"
"288.667","-2.79428","50.7883","10.1963"
"289.067","-2.77108","50.663","10.2259"
"289.467","-2.74546","50.5502","10.2557"
"289.867","-2.7224","50.429","10.2785"
"290.267","-2.69913","50.3207","10.3109"
"290.667","-2.67434","50.1727","10.331"
"291.067","-2.64969","50.0676","10.3584"
"291.467","-2.62639","49.9597","10.3826"
"291.867","-2.60249","49.81375","10.4131"
"292.267","-2.57897","49.7047","10.4356"
"292.667","-2.55326","49.5867","10.4637"
"293.067","-2.52957","49.4498","10.4912"
"293.467","-2.5062","49.3453","10.5067"
"293.868","-2.48239","49.2001","10.5413"
"294.268","-2.4587","49.0937","10.5646"
"294.668","-2.43435","48.9542","10.5977"
"295.068","-2.41034","48.8177","10.6226"
"295.468","-2.38634","48.6835","10.6468"
"295.868","-2.36262","48.5505","10.673"
"296.268","-2.3377","48.4011","10.6998"
"296.668","-2.31351","48.2757","10.7287"
"297.068","-2.29086","48.14","10.752"
"297.468","-2.26646","47.9939","10.7741"
"297.868","-2.24218","47.8616","10.8057"
"298.268","-2.21846","47.7122","10.8309"
"298.668","-2.19401","47.5832","10.8569"
"299.068","-2.17017","47.4284","10.8836"
"299.468","-2.14615","47.2979","10.9093"
"299.868","-2.12252","47.1239","10.932"
"300.269","-2.09947","46.9892","10.9644"
"300.669","-2.07275","46.8453","10.9888"
"301.069","-2.0509","46.6955","11.0154"
"301.469","-2.02597","46.5353","11.0403"
"301.869","-2.00323","46.3806","11.0688"
"302.269","-1.97684","46.2231","11.096"
"302.669","-1.9529","46.07125","11.1258"
"303.069","-1.92994","45.9278","11.1524"
"303.469","-1.90507","45.7691","11.1753"
"303.869","-1.88145","45.5949","11.2056"
"304.269","-1.85701","45.4541","11.2286"
"304.669","-1.83465","45.2652","11.2552"
"305.069","-1.80995","45.106","11.2842"
"305.469","-1.786","44.9346","11.3083"
"305.869","-1.76234","44.7633","11.3359"
"306.27","-1.7378","44.5944","11.3655"
"306.67","-1.71413","44.4523","11.3858"
"307.07","-1.68968","44.2382","11.4141"
"307.47","-1.66583","44.0845","11.4453"
"307.87","-1.6427","43.8917","11.4778"
"308.27","-1.61856","43.7189","11.4924"
"308.67","-1.59477","43.5365","11.525"
"309.07","-1.56941","43.3465","11.5538"
"309.47","-1.54706","43.1794","11.5886"
"309.87","-1.52183","42.987","11.6055"
"310.27","-1.49863","42.7803","11.6374"
"310.67","-1.47359","42.5506","11.6657"
"311.07","-1.45019","42.3352","11.6901"
"311.47","-1.42666","42.1117","11.7169"
"311.87","-1.40117","41.8242","11.752"
"312.271","-1.37699","41.4789","11.777"
"312.671","-1.3539","40.6157","11.8176"
"313.071","-1.3295","0.00954635","-3.63354e-05"
"313.471","-1.30644","0.00607077","-0.000289848"
"313.871","-1.28196","-0.0304629","-0.000411906"
"314.271","-1.25805","-0.00932394","-0.000378048"
"314.671","-1.23382","0.0124662","-0.000205529"
"315.071","-1.20943","-0.0273509","-0.000379486"
"315.471","-1.18567","-0.0149159","-0.00049592"
"315.871","-1.16227","0.00921922","-0.000279136"
"316.271","-1.13764","-0.0282164","-0.000170222"
"316.671","-1.11401","-0.0183309","-0.000240569"
"317.071","-1.08927","0.0109591","-0.00025317"
"317.471","-1.06586","-0.017634","-0.000471864"
"317.871","-1.0418","-0.000841159","-0.000195432"
"318.271","-1.01681","0.0209619","-0.000562319"
"318.672","-0.994003","-0.00527815","-0.000341688"
"319.072","-0.969807","-0.0297739","-0.000736272"
"319.472","-0.946091","0.00262744","-0.000528553"
"319.872","-0.922097","-0.00549667","-0.00031602"
"320.272","-0.89786","-0.0151305","-0.00071978"
"320.672","-0.873463","-9.45874e-05","-0.000520082"
"321.072","-0.850483","-0.00427285","-0.000455501"
"321.272","-0.837085","0.00715448","-0.000544107"